File: uspex_example_for_xrd/Specific/xrd_target.csv
0.01,1
0.13,1
0.25,1
0.37,1
0.49,1
0.61,1
0.73,1
0.85,1
0.97,1
1.09,1
1.21,1
1.33,1
1.45,1
1.57,1
1.69,1
1.81,1
1.93,1
2.05,1
2.17,1
2.29,1
2.41,1
2.53,1
2.65,1
2.77,1
2.89,1
3.01,1
3.13,1
3.25,1
3.37,1
3.49,1
3.61,1
3.73,1
3.85,1
3.97,1
4.09,1
4.21,1
4.33,1
4.45,1
4.57,1
4.69,1
4.81,1
4.93,1
5.05,1
5.17,1
5.29,1
5.41,1
5.53,1
5.65,1
5.77,1
5.89,1
6.01,1
6.13,1
6.25,1
6.37,1
6.49,1
6.61,1
6.73,1
6.85,1
6.97,1
7.09,1
7.21,1
7.33,1
7.45,1
7.57,1
7.69,1
7.81,1
7.93,1
8.05,1
8.17,1
8.29,1
8.41,1
8.53,1
8.65,1
8.77,1
8.89,1
9.01,1
9.13,1
9.25,1
9.37,1
9.49,1
9.61,1
9.73,1
9.85,1
9.97,1
10.09,1
10.21,1
10.33,1
10.45,1
10.57,1
10.69,1
10.81,1
10.93,1
11.05,1
11.17,1
11.29,1
11.41,1
11.53,1
11.65,1
11.77,1
11.89,1
12.01,1
12.13,1
12.25,1
12.37,1
12.49,1
12.61,1
12.73,1
12.85,1
12.97,1
13.09,1
13.21,1
13.33,1
13.45,1
13.57,1
13.69,1
13.81,1
13.93,1
14.05,1
14.17,1
14.29,1
14.41,1
14.53,1
14.65,1
14.77,1
14.89,1
15.01,1
15.13,1
15.25,1
15.37,1
15.49,1
15.61,1
15.73,1
15.85,1
15.97,1
16.09,1
16.21,1
16.33,1
16.45,1
16.57,1
16.69,1
16.81,1
16.93,1
17.05,1
17.17,1
17.29,1
17.41,1
17.53,1
17.65,1
17.77,1
17.89,1
18.01,1
18.13,1
18.25,1
18.37,1
18.49,1
18.61,1
18.73,1
18.85,1
18.97,1
19.09,1
19.21,1
19.33,1
19.45,1
19.57,1
19.69,1
19.81,1
19.93,1
20.05,1
20.17,1
20.29,1
20.41,1
20.53,1
20.65,1
20.77,1
20.89,1
21.01,1
21.13,1
21.25,1
21.37,1
21.49,1
21.61,1
21.73,1
21.85,1
21.97,1
22.09,1
22.21,1
22.33,1
22.45,1
22.57,1
22.69,1
22.81,1
22.93,1
23.05,1
23.17,1
23.29,1
23.41,1
23.53,1
23.65,1.42114
23.77,1.66571
23.89,1.71151
24.01,1.76221
24.13,1.81852
24.25,1.88132
24.37,1.95163
24.49,2.0307
24.61,2.12005
24.73,2.22155
24.85,2.33749
24.97,2.47077
25.09,2.62501
25.21,2.80486
25.33,3.01631
25.45,3.26722
25.57,3.56807
25.69,3.93305
25.81,4.38176
25.93,4.94195
26.05,5.65386
26.17,6.57769
26.29,7.80677
26.41,9.49213
26.53,11.8913
26.65,15.4732
26.77,21.1663
26.89,31.0303
27.01,50.4302
27.13,97.3077
27.25,266.322
27.37,5026.34
27.49,9396.87
27.61,329.896
27.73,108.917
27.85,54.4442
27.97,40.6472
28.09,30.4491
28.21,24.9231
28.33,21.7548
28.45,19.9266
28.57,18.938
28.69,18.5238
28.81,18.5374
28.93,18.898
29.05,19.5643
29.17,20.5216
29.29,21.7753
29.41,23.3485
29.53,25.2814
29.65,27.6346
29.77,30.493
29.89,33.9737
30.01,38.2387
30.13,43.5134
30.25,50.1172
30.37,58.5125
30.49,69.3875
30.61,83.8012
30.73,103.451
30.85,131.194
30.97,172.151
31.09,236.255
31.21,344.921
31.33,551.694
31.45,1024.32
31.57,2542.21
31.69,19183.6
31.81,96097.8
31.93,6974.08
32.05,1724.58
32.17,790.911
32.29,454.434
32.41,295.287
32.53,207.462
32.65,153.875
32.77,118.773
32.89,94.5292
33.01,76.8922
33.13,63.8329
33.25,53.9342
33.37,46.2039
33.49,40.0517
33.61,35.0755
33.73,30.9934
33.85,27.6034
33.97,24.7574
34.09,22.3449
34.21,20.2821
34.33,18.5046
34.45,16.962
34.57,15.6147
34.69,14.4311
34.81,13.3857
34.93,12.4578
35.05,11.6304
35.17,10.8895
35.29,10.2234
35.41,9.62249
35.53,9.07841
35.65,8.58426
35.77,8.13411
35.89,7.72288
36.01,7.34621
36.13,7.00034
36.25,6.68199
36.37,6.38832
36.49,6.11685
36.61,5.8654
36.73,5.63203
36.85,5.41506
36.97,5.21299
37.09,5.02448
37.21,4.84835
37.33,4.68354
37.45,4.52909
37.57,1
37.69,1
37.81,1
37.93,1
38.05,1
38.17,1
38.29,1
38.41,1
38.53,1
38.65,1
38.77,1
38.89,1
39.01,1
39.13,1
39.25,1
39.37,1
39.49,1
39.61,1
39.73,1
39.85,1
39.97,1
40.09,1
40.21,1
40.33,1
40.45,1
40.57,1
40.69,1
40.81,1
40.93,1
41.05,1
41.17,1
41.29,4.62534
41.41,6.65337
41.53,6.9943
41.65,7.36702
41.77,7.77565
41.89,8.2249
42.01,8.72039
42.13,9.26865
42.25,9.8775
42.37,10.5561
42.49,11.3157
42.61,12.1696
42.73,13.1342
42.85,14.2293
42.97,15.4798
43.09,16.9164
43.21,18.578
43.33,20.5141
43.45,22.7891
43.57,25.4864
43.69,28.7179
43.81,32.6346
43.93,37.4451
44.05,43.4438
44.17,51.0574
44.29,60.9232
44.41,74.0273
44.53,91.9627
44.65,117.44
44.77,155.386
44.89,215.535
45.01,319.455
45.13,523.331
45.25,1015.87
45.37,2808.98
45.49,47468.6
45.61,34965.4
45.73,6677.96
45.85,1423.79
45.97,651.634
46.09,376.16
46.21,245.61
46.33,173.269
46.45,128.946
46.57,99.8043
46.69,79.6131
46.81,65.0435
46.93,54.1842
47.05,45.8729
47.17,39.3699
47.29,34.1857
47.41,29.9862
47.53,26.5367
47.65,23.6686
47.77,21.2582
47.89,19.2129
48.01,17.4626
48.13,15.9531
48.25,14.6421
48.37,13.4964
48.49,12.4892
48.61,11.5991
48.73,10.8085
48.85,10.1033
48.97,9.47145
49.09,8.90323
49.21,8.39031
49.33,7.92579
49.45,7.5037
49.57,7.25488
49.69,6.97828
49.81,6.66843
49.93,6.38592
50.05,6.12811
50.17,5.89272
50.29,5.67783
50.41,5.48178
50.53,5.3032
50.65,5.14094
50.77,4.99407
50.89,4.86186
51.01,4.74381
51.13,4.63963
51.25,4.54925
51.37,4.47286
51.49,4.41095
51.61,4.36437
51.73,4.33441
51.85,2.68959
51.97,1.94319
52.09,3.33528
52.21,4.17892
52.33,4.46949
52.45,4.81276
52.57,5.22485
52.69,5.72918
52.81,6.36102
52.93,7.17583
53.05,8.26522
53.17,9.79047
53.29,12.0588
53.41,15.7201
53.53,22.3641
53.65,36.8316
53.77,80.6105
53.89,449.07
54.01,1795.44
54.13,1709.97
54.25,106.299
54.37,44.3332
54.49,28.2393
54.61,22.1282
54.73,19.657
54.85,18.9744
54.97,19.4167
55.09,20.7545
55.21,22.9732
55.33,26.2127
55.45,30.7809
55.57,37.2289
55.69,46.5267
55.81,60.4511
55.93,82.5057
56.05,120.384
56.17,193.85
56.29,367.822
56.41,975.118
56.53,11934.4
56.65,7319.39
56.77,9065.67
56.89,745.501
57.01,300.589
57.13,165.385
57.25,105.512
57.37,73.5219
57.49,54.3559
57.61,41.9422
57.73,33.4321
57.85,27.3393
57.97,22.8248
58.09,19.3854
58.21,16.704
58.33,14.5725
58.45,12.8497
58.57,11.4372
58.69,10.2644
58.81,9.27991
58.93,8.44532
59.05,7.73157
59.17,7.11635
59.29,6.58227
59.41,6.11561
59.53,5.70546
59.65,5.34301
59.77,5.02112
59.89,4.73394
60.01,4.47663
60.13,4.24519
60.25,4.03623
60.37,3.84694
60.49,3.67491
60.61,3.51809
60.73,3.31724
60.85,3.15889
60.97,3.04107
61.09,2.93264
61.21,2.83262
61.33,2.74018
61.45,3.20304
61.57,3.15143
61.69,3.3881
61.81,3.36615
61.93,3.35263
62.05,3.34757
62.17,3.35108
62.29,3.36341
62.41,3.38491
62.53,3.41605
62.65,3.45747
62.77,3.50996
62.89,3.57453
63.01,3.65238
63.13,3.74503
63.25,3.8543
63.37,3.98244
63.49,3.59596
63.61,3.51826
63.73,3.74874
63.85,4.01241
63.97,4.31596
64.09,4.66787
64.21,5.07901
64.33,5.56347
64.45,6.1398
64.57,6.83286
64.69,7.67648
64.81,8.71778
64.93,10.0239
65.05,11.6931
65.17,13.8743
65.29,16.8014
65.41,20.8598
65.53,26.7219
65.65,35.6499
65.77,50.2526
65.89,76.6885
66.01,132.666
66.13,288.808
66.25,1139.04
66.37,13090.1
66.49,3189.96
66.61,1646.77
66.73,272.349
66.85,123.108
66.97,71.5966
67.09,47.3097
67.21,33.8154
67.33,25.507
67.45,20.0159
67.57,16.1923
67.69,13.4207
67.81,11.3465
67.93,9.75309
68.05,8.56939
68.17,7.57256
68.29,6.79772
68.41,6.13432
68.53,5.58285
68.65,5.11983
68.77,4.7277
68.89,4.39309
69.01,4.1057
69.13,3.8575
69.25,3.64216
69.37,3.45464
69.49,3.29092
69.61,3.14774
69.73,3.02249
69.85,2.91306
69.97,2.81776
70.09,2.73522
70.21,4.1346
70.33,4.85269
70.45,4.91111
70.57,4.98762
70.69,5.08301
70.81,5.19841
70.93,5.33539
71.05,5.49605
71.17,5.68308
71.29,5.90003
71.41,6.15147
71.53,6.44341
71.65,6.78388
71.77,7.18377
71.89,7.65831
72.01,8.22948
72.13,8.93026
72.25,9.81262
72.37,10.9636
72.49,12.5401
72.61,14.8545
72.73,18.6148
72.85,25.7585
72.97,43.4409
73.09,119.729
73.21,1609.78
73.33,230.304
73.45,696.381
73.57,72.374
73.69,40.261
73.81,33.1736
73.93,32.2739
74.05,34.2869
74.17,38.3566
74.29,44.564
74.41,53.5067
74.53,66.4037
74.65,85.5387
74.77,115.368
74.89,165.433
75.01,259.301
75.13,469.59
75.25,1124.05
75.37,7146.93
75.49,17311.9
75.61,7804.14
75.73,5029.58
75.85,797.737
75.97,357.885
76.09,207.829
76.21,137.214
76.33,97.9137
76.45,73.6491
76.57,57.5626
76.69,46.3271
76.81,38.1594
76.93,32.0303
77.05,27.3106
77.17,23.5972
77.29,20.6219
77.41,18.2006
77.53,16.2034
77.65,14.5364
77.77,13.1305
77.89,11.9336
78.01,10.9061
78.13,10.0176
78.25,9.24382
78.37,8.56591
78.49,9.00273
78.61,8.51879
78.73,8.61041
78.85,8.26336
78.97,7.96452
79.09,7.70868
79.21,7.49156
79.33,7.30973
79.45,7.16043
79.57,7.0415
79.69,6.95128
79.81,6.88859
79.93,6.8527
80.05,6.84326
80.17,6.86034
80.29,6.9044
80.41,6.97635
80.53,7.07754
80.65,7.20983
80.77,7.37566
80.89,7.57813
81.01,7.82114
81.13,8.08089
81.25,8.40684
81.37,8.80664
81.49,9.3043
81.61,9.8524
81.73,10.5093
81.85,11.2643
81.97,12.155
82.09,13.2119
82.21,14.4746
82.33,15.9959
82.45,17.847
82.57,20.1261
82.69,22.9715
82.81,26.5827
82.93,31.2571
83.05,37.4529
83.17,45.9077
83.29,57.8717
83.41,75.6087
83.53,102.963
83.65,150.728
83.77,244.583
83.89,470.457
84.01,1288.01
84.13,13423
84.25,5517.52
84.37,5357.53
84.49,4048.9
84.61,635.844
84.73,283.639
84.85,164.884
84.97,109.194
85.09,78.1967
85.21,59.03
85.33,46.2992
85.45,37.3906
85.57,30.9036
85.69,26.029
85.81,22.2712
85.93,19.3124
86.05,16.9409
86.17,15.0112
86.29,13.4203
86.41,12.0938
86.53,10.9768
86.65,10.0281
86.77,9.21626
86.89,8.51706
87.01,7.9115
87.13,7.38458
87.25,6.92436
87.37,6.52129
87.49,6.16765
87.61,5.85725
87.73,5.5851
87.85,5.34724
87.97,5.14056
88.09,4.96275
88.21,4.81221
88.33,4.68805
88.45,4.59011
88.57,4.51907
88.69,4.47661
88.81,4.46564
88.93,4.49078
89.05,4.55897
89.17,4.68062
89.29,4.87136
89.41,5.15518
89.53,5.56994
89.65,6.17785
89.77,7.08673
89.89,8.49668
90.01,10.8146
90.13,14.9791
90.25,23.5928
90.37,46.3528
90.49,151.546
90.61,1452.2
90.73,212.468
90.85,397.298
90.97,254.149
91.09,45.7668
91.21,21.8742
91.33,13.7294
91.45,9.83291
91.57,7.63943
91.69,6.26739
91.81,5.34508
91.93,4.69162
92.05,4.20962
92.17,3.84262
92.29,3.55587
92.41,3.32704
92.53,3.14116
92.65,2.98791
92.77,2.85997
92.89,2.313
93.01,2.23296
93.13,1.94527
93.25,1.89418
93.37,1.8515
93.49,1.81587
93.61,1.78624
93.73,1.76176
93.85,1.74174
93.97,1.72565
94.09,1.71303
94.21,1.70354
94.33,1.69687
94.45,1.6928
94.57,1.69114
94.69,1.69174
94.81,1.69449
94.93,1.69929
95.05,1.70611
95.17,1.71489
95.29,1.72562
95.41,1.73832
95.53,1.753
95.65,1.76971
95.77,1.78852
95.89,1.8095
96.01,1.83277
96.13,1.85845
96.25,1.88668
96.37,1.91765
96.49,1.95155
96.61,1.98861
96.73,2.06608
96.85,2.04713
96.97,2.0987
97.09,2.1406
97.21,2.20309
97.33,2.27098
97.45,2.3449
97.57,2.4256
97.69,2.51395
97.81,2.61095
97.93,2.71778
98.05,2.83583
98.17,2.96673
98.29,3.11244
98.41,3.27531
98.53,3.45815
98.65,3.93053
98.77,4.16995
98.89,4.44236
99.01,4.88628
99.13,5.24862
99.25,5.66919
99.37,6.16149
99.49,6.74328
99.61,7.4381
99.73,8.27795
99.85,9.30705
99.97,10.588
100.09,12.2121
100.21,14.3159
100.33,17.1131
100.45,20.9516
100.57,26.432
100.69,34.6671
100.81,47.9184
100.93,71.4015
101.05,119.572
101.17,246.006
101.29,840.004
101.41,6141.73
101.53,1087.21
101.65,762.181
101.77,3100.96
101.89,441.379
102.01,150.143
102.13,80.336
102.25,51.4786
102.37,36.4708
102.49,27.5633
102.61,21.8057
102.73,17.8556
102.85,15.0242
102.97,12.9257
103.09,11.3292
103.21,10.0894
103.33,9.11045
103.45,8.32746
103.57,7.69488
103.69,7.18012
103.81,6.75934
103.93,6.41482
104.05,6.13319
104.17,5.90429
104.29,5.72028
104.41,5.57517
104.53,5.46433
104.65,5.38423
104.77,5.33223
104.89,5.30645
105.01,5.30564
105.13,5.32912
105.25,5.3768
105.37,5.44908
105.49,5.54698
105.61,5.67209
105.73,5.82678
105.85,6.01426
105.97,6.23883
106.09,6.50623
106.21,6.82405
106.33,7.38126
106.45,7.83737
106.57,8.38712
106.69,9.0576
106.81,9.97755
106.93,11.0296
107.05,12.3951
107.17,14.2298
107.29,16.809
107.41,20.6628
107.53,26.9297
107.65,38.4606
107.77,64.2301
107.89,146.4
108.01,845.44
108.13,934.7
108.25,198.048
108.37,303.778
108.49,748.079
108.61,130.388
108.73,62.3363
108.85,45.9444
108.97,41.3369
109.09,41.6391
109.21,45.177
109.33,51.8303
109.45,62.41
109.57,78.8629
109.69,105.265
109.81,150.678
109.93,238.288
110.05,442.737
110.17,1133.31
110.29,7094.63
110.41,5879.04
110.53,1300
110.65,1923.56
110.77,5699.32
110.89,946.576
111.01,338.58
111.13,183.819
111.25,118.274
111.37,83.7196
111.49,62.9903
111.61,49.4581
111.73,40.0833
111.85,33.296
111.97,28.212
112.09,24.3157
112.21,21.2377
112.33,18.7715
112.45,16.765
112.57,15.1191
112.69,13.7407
112.81,12.5806
112.93,11.5964
113.05,10.7553
113.17,10.0323
113.29,9.40768
113.41,8.86573
113.53,8.39401
113.65,7.98246
113.77,7.62288
113.89,7.46062
114.01,7.18839
114.13,6.95148
114.25,6.74615
114.37,6.56931
114.49,6.49432
114.61,6.36839
114.73,6.26465
114.85,6.18175
114.97,6.11862
115.09,6.07452
115.21,6.04891
115.33,6.04153
115.45,6.05233
115.57,6.08151
115.69,6.12951
115.81,6.11757
115.93,6.20793
116.05,6.31992
116.17,6.41514
116.29,6.57685
116.41,6.76623
116.53,6.98632
116.65,7.24079
116.77,7.53414
116.89,7.9873
117.01,8.37664
117.13,8.82526
117.25,9.34336
117.37,9.94366
117.49,10.6422
117.61,11.4593
117.73,12.4212
117.85,13.5621
117.97,14.9271
118.09,16.5771
118.21,18.5952
118.33,20.5277
118.45,23.7004
118.57,27.8309
118.69,32.8963
118.81,40.1478
118.93,50.3106
119.05,65.2177
119.17,88.4342
119.29,127.688
119.41,202.456
119.53,374.102
119.65,946.634
119.77,4895.44
119.89,4653.81
120.01,1035.37
120.13,757.165
120.25,2345.66
120.37,2653.57
120.49,548.1
120.61,231.909
120.73,133.77
120.85,89.0624
120.97,64.5017
121.09,49.3851
121.21,39.3365
121.33,32.2794
121.45,27.1151
121.57,23.2134
121.69,20.2122
121.81,17.8494
121.93,15.925
122.05,14.354
122.17,13.056
122.29,11.9726
122.41,11.0604
122.53,10.2867
122.65,9.62645
122.77,9.06028
122.89,8.57288
123.01,8.16652
123.13,7.80282
123.25,7.48823
123.37,7.2164
123.49,6.98215
123.61,6.78125
123.73,6.61025
123.85,6.46634
123.97,6.34724
124.09,6.25115
124.21,6.17667
124.33,6.12278
124.45,6.08876
124.57,6.07426
124.69,6.07922
124.81,6.10394
124.93,6.14905
125.05,6.21563
125.17,6.30519
125.29,6.41987
125.41,6.56249
125.53,6.73683
125.65,6.9479
125.77,7.2024
125.89,7.50938
126.01,7.88128
126.13,8.3356
126.25,8.89754
126.37,9.60465
126.49,10.5151
126.61,11.7232
126.73,13.3913
126.85,15.8197
126.97,19.6192
127.09,26.1976
127.21,39.4307
127.33,73.7497
127.45,236.6
127.57,711.919
127.69,230.961
127.81,87.8958
127.93,78.7781
128.05,186.466
128.17,339.708
128.29,98.4574
128.41,47.0207
128.53,35.1093
128.65,31.4262
128.77,31.0427
128.89,32.597
129.01,35.353
129.13,40.1933
129.25,47.1663
129.37,57.1544
129.49,71.5852
129.61,93.9291
129.73,130.319
129.85,195.429
129.97,329.695
130.09,686.507
130.21,2358.89
130.33,6534.82
130.45,2184.67
130.57,762.58
130.69,596.559
130.81,1186.18
130.93,3340.08
131.05,1278.49
131.17,394.127
131.29,200.725
131.41,125.401
131.53,87.3501
131.65,65.1646
131.77,50.9462
131.89,41.2094
132.01,34.2088
132.13,28.9847
132.25,24.9705
132.37,21.8121
132.49,19.2782
132.61,17.2117
132.73,15.503
132.85,14.0729
132.97,12.8637
133.09,11.8318
133.21,10.9442
133.33,10.1752
133.45,9.5047
133.57,8.91679
133.69,8.39865
133.81,7.93992
133.93,7.53213
134.05,7.16828
134.17,6.84257
134.29,6.55017
134.41,6.28698
134.53,6.04957
134.65,5.835
134.77,5.64077
134.89,5.46473
135.01,5.30503
135.13,5.16008
135.25,5.02848
135.37,4.90904
135.49,4.8007
135.61,4.70256
135.73,4.61381
135.85,4.53377
135.97,4.46182
136.09,4.39745
136.21,4.34018
136.33,4.28964
136.45,4.24547
136.57,4.20741
136.69,4.1752
136.81,4.14866
136.93,4.12763
137.05,4.112
137.17,4.10171
137.29,4.09672
137.41,4.09704
137.53,4.10271
137.65,4.11382
137.77,4.13049
137.89,4.15291
138.01,4.18129
138.13,4.18071
138.25,4.22271
138.37,4.27167
138.49,4.32808
138.61,4.37458
138.73,4.44809
138.85,4.53106
138.97,4.62441
139.09,4.72921
139.21,4.84676
139.33,4.97854
139.45,5.12632
139.57,5.29223
139.69,5.47877
139.81,5.68896
139.93,5.92646
140.05,6.19568
140.17,6.50206
140.29,6.85228
140.41,7.25472
140.53,7.71986
140.65,8.26109
140.77,8.89568
140.89,9.64616
141.01,10.5425
141.13,11.6252
141.25,12.9501
141.37,14.2592
141.49,16.3474
141.61,19.0412
141.73,22.6048
141.85,27.4661
141.97,34.1862
142.09,44.4351
142.21,60.6692
142.33,88.6779
142.45,143.431
142.57,281.063
142.69,759.966
142.81,1801.43
142.93,1142.39
143.05,413.433
143.17,211.99
143.29,165.529
143.41,198.651
143.53,416.316
143.65,924.557
143.77,590.458
143.89,214.801
144.01,102.896
144.13,63.4758
144.25,44.1672
144.37,33.1076
144.49,26.1291
144.61,21.4113
144.73,18.0546
144.85,15.5713
144.97,13.6773
145.09,12.1969
145.21,11.0168
145.33,10.0605
145.45,9.27502
145.57,8.62249
145.69,8.07521
145.81,7.61252
145.93,7.21872
146.05,6.88171
146.17,6.59201
146.29,6.34213
146.41,6.12607
146.53,5.93897
146.65,5.77687
146.77,5.63653
146.89,5.51526
147.01,5.41081
147.13,5.32132
147.25,5.2452
147.37,5.18113
147.49,5.12799
147.61,5.08481
147.73,5.0508
147.85,5.02526
147.97,5.00761
148.09,4.99736
148.21,4.99409
148.33,4.99747
148.45,5.00721
148.57,5.02309
148.69,5.04491
148.81,5.07256
148.93,5.10595
149.05,5.14502
149.17,5.18976
149.29,5.24019
149.41,5.29639
149.53,5.35844
149.65,5.42648
149.77,5.50069
149.89,5.58128
150.01,5.6685
150.13,5.76265
150.25,5.86409
150.37,5.97323
150.49,6.09051
150.61,6.21649
150.73,6.35175
150.85,6.497
150.97,6.65302
151.09,6.82072
151.21,7.00111
151.33,7.19539
151.45,7.40489
151.57,7.63119
151.69,7.87609
151.81,8.14168
151.93,8.43041
152.05,8.74514
152.17,9.08926
152.29,9.46676
152.41,9.88243
152.53,10.342
152.65,10.8525
152.77,11.4224
152.89,12.0623
153.01,12.7851
153.13,13.6073
153.25,14.55
153.37,15.6403
153.49,16.9137
153.61,18.4174
153.73,20.2158
153.85,22.3979
153.97,25.0897
154.09,28.4754
154.21,32.8312
154.33,38.5883
154.45,46.4476
154.57,57.6099
154.69,74.2667
154.81,100.86
154.93,148.5
155.05,250.324
155.17,486.701
155.29,934.913
155.41,1203.05
155.53,790.343
155.65,406.011
155.77,226.017
155.89,153.163
156.01,123.751
156.13,116.383
156.25,129.691
156.37,180.53
156.49,311.967
156.61,543.942
156.73,602.177
156.85,367.702
156.97,195.191
157.09,116.607
157.21,82.4227
157.33,65.2046
157.45,55.297
157.57,49.2651
157.69,45.4652
157.81,43.2875
157.93,42.1828
158.05,41.891
158.17,42.2607
158.29,43.2074
158.41,44.6921
158.53,46.6603
158.65,49.2326
158.77,52.4081
158.89,56.2632
159.01,60.9067
159.13,66.4876
159.25,73.2072
159.37,81.338
159.49,91.2515
159.61,103.461
159.73,118.691
159.85,137.983
159.97,162.877
160.09,195.72
160.21,240.229
160.33,302.594
160.45,394.154
160.57,539.042
160.69,793.967
160.81,1279.74
160.93,2183.55
161.05,3597.87
161.17,4788.24
161.29,4205.09
161.41,2715.19
161.53,1610.67
161.65,996.062
161.77,685.114
161.89,528.044
162.01,449.064
162.13,419.249
162.25,433.629
162.37,507.864
162.49,689.427
162.61,1063.92
162.73,1703.46
162.85,2381.78
162.97,2294.31
163.09,1556.61
163.21,932.619
163.33,566.486
163.45,372.84
163.57,267.809
163.69,204.68
163.81,162.835
163.93,133.297
164.05,111.569
164.17,95.0758
164.29,82.2296
164.41,72.004
164.53,63.7129
164.65,56.8833
164.77,51.1799
164.89,46.36
165.01,42.2439
165.13,38.6963
165.25,35.6133
165.37,32.9144
165.49,30.5362
165.61,28.4279
165.73,26.5488
165.85,24.8657
165.97,23.3514
166.09,21.9833
166.21,20.7425
166.33,19.6132
166.45,18.5821
166.57,17.6378
166.69,16.7704
166.81,15.9716
166.93,15.2342
167.05,14.5519
167.17,13.9191
167.29,13.3311
167.41,12.7836
167.53,12.2729
167.65,11.7957
167.77,11.349
167.89,10.9303
168.01,10.5372
168.13,10.1676
168.25,9.81965
168.37,9.49165
168.49,9.18206
168.61,8.88951
168.73,8.61275
168.85,8.35064
168.97,8.10215
169.09,7.86632
169.21,7.6423
169.33,7.42931
169.45,7.22661
169.57,7.03354
169.69,6.84949
169.81,6.6739
169.93,6.50625
170.05,6.34607
170.17,6.1929
170.29,6.04634
170.41,5.90601
170.53,5.77155
170.65,5.64264
170.77,5.51897
170.89,5.40026
171.01,5.28624
171.13,5.17667
171.25,5.07131
171.37,4.96995
171.49,4.87239
171.61,4.77843
171.73,4.68791
171.85,4.60064
171.97,4.51648
172.09,4.43527
172.21,4.35689
172.33,4.28119
172.45,4.20806
172.57,4.13738
172.69,4.06904
172.81,4.00294
172.93,3.93898
173.05,3.87707
173.17,3.81711
173.29,3.75903
173.41,3.70276
173.53,3.6482
173.65,3.5953
173.77,3.54399
173.89,3.4942
174.01,3.44588
174.13,3.39896
174.25,3.35339
174.37,3.30913
174.49,3.26611
174.61,3.2243
174.73,3.18365
174.85,3.14411
174.97,3.10565
175.09,3.06822
175.21,3.03179
175.33,2.99633
175.45,2.96179
175.57,2.92815
175.69,2.89538
175.81,2.86344
175.93,2.83232
176.05,2.80197
176.17,2.77237
176.29,2.74351
176.41,2.71535
176.53,2.68788
176.65,2.66106
176.77,2.63489
176.89,2.60933
177.01,2.58437
177.13,2.55999
177.25,2.53618
177.37,2.51291
177.49,2.49017
177.61,2.46795
177.73,2.44622
177.85,2.42497
177.97,2.34022
178.09,2.32057
178.21,2.30136
178.33,2.28256
178.45,2.26416
178.57,2.24616
178.69,2.22855
178.81,2.2113
178.93,2.19442
179.05,2.17789
179.17,2.1617
179.29,2.11393
179.41,2.09873
179.53,2.08385
179.65,2.06926
179.77,2.05497
179.89,2.04096
180,2.02837