File: utils_for_xrd/cossim_vs_xrdcsv/MgO_xrd.csv
0.000000000000000000e+00,1
0.13,1
0.26,1
0.39,1
0.52,1
0.65,1
0.78,1
0.91,1
1.04,1
1.17,1
1.3,1
1.43,1
1.56,1
1.69,1
1.82,1
1.95,1
2.08,1
2.21,1
2.34,1
2.47,1
2.6,1
2.73,1
2.86,1
2.99,1
3.12,1
3.25,1
3.38,1
3.51,1
3.64,1
3.77,1
3.9,1
4.03,1
4.16,1
4.29,1
4.42,1
4.55,1
4.68,1
4.81,1
4.94,1
5.07,1
5.2,1
5.33,1
5.46,1
5.59,1
5.72,1
5.85,1
5.98,1
6.11,1
6.24,1
6.37,1
6.5,1
6.63,1
6.76,1
6.89,1
7.02,1
7.15,1
7.28,1
7.41,1
7.54,1
7.67,1
7.8,1
7.93,1
8.06,1
8.19,1
8.32,1
8.45,1
8.58,1
8.71,1
8.84,1
8.97,1
9.1,1
9.23,1
9.36,1
9.49,1
9.62,1
9.75,1
9.88,1
10.01,1
10.14,1
10.27,1
10.4,1
10.53,1
10.66,1
10.79,1
10.92,1
11.05,1
11.18,1
11.31,1
11.44,1
11.57,1
11.7,1
11.83,1
11.96,1
12.09,1
12.22,1
12.35,1
12.48,1
12.61,1
12.74,1
12.87,1
13,1
13.13,1
13.26,1
13.39,1
13.52,1
13.65,1
13.78,1
13.91,1
14.04,1
14.17,1
14.3,1
14.43,1
14.56,1
14.69,1
14.82,1
14.95,1
15.08,1
15.21,1
15.34,1
15.47,1
15.6,1
15.73,1
15.86,1
15.99,1
16.12,1
16.25,1
16.38,1
16.51,1
16.64,1
16.77,1
16.9,1
17.03,1
17.16,1
17.29,1
17.42,1
17.55,1
17.68,1
17.81,1
17.94,1
18.07,1
18.2,1
18.33,1
18.46,1
18.59,1
18.72,1
18.85,1
18.98,1
19.11,1
19.24,1
19.37,1
19.5,1
19.63,1
19.76,1
19.89,1
20.02,1
20.15,1
20.28,1
20.41,1
20.54,1
20.67,1
20.8,1
20.93,1
21.06,1
21.19,1
21.32,1
21.45,1
21.58,1
21.71,1
21.84,1
21.97,1
22.1,1
22.23,1
22.36,1
22.49,1
22.62,1
22.75,1
22.88,1
23.01,1
23.14,1
23.27,1
23.4,1
23.53,1
23.66,1
23.79,1
23.92,1
24.05,1
24.18,1
24.31,1
24.44,1
24.57,1
24.7,1
24.83,1
24.96,1
25.09,1
25.22,1
25.35,1
25.48,1
25.61,1
25.74,1
25.87,1
26,1
26.13,1
26.26,1
26.39,1
26.52,1
26.65,1
26.78,1
26.91,1
27.04,1
27.17,1
27.3,1
27.43,1
27.56,1
27.69,1
27.82,1
27.95,1
28.08,1
28.21,1
28.34,1
28.47,1
28.6,1
28.73,1
28.86,1
28.99,1
29.12,1
29.25,1
29.38,1
29.51,1
29.64,1
29.77,1
29.9,1
30.03,1
30.16,1
30.29,1
30.42,1
30.55,1
30.68,1
30.81,1
30.94,1
31.07,1
31.2,1
31.33,1
31.46,1
31.59,1
31.72,1
31.85,1
31.98,1
32.11,1
32.24,1
32.37,1
32.5,1
32.63,1
32.76,1
32.89,1
33.02,1.41369
33.15,1.44253
33.28,1.47449
33.41,1.51004
33.54,1.54974
33.67,1.59427
33.8,1.64444
33.93,1.70123
34.06,1.76589
34.19,1.83991
34.32,1.92522
34.45,2.02421
34.58,2.14
34.71,2.27659
34.84,2.4393
34.97,2.63523
35.1,2.8741
35.23,3.16943
35.36,3.54054
35.49,4.01579
35.62,4.63816
35.75,5.47535
35.88,6.63908
36.01,8.32451
36.14,10.8982
36.27,15.1168
36.4,22.7596
36.53,38.8917
36.66,83.2717
36.79,303.992
36.92,9330.44
37.05,1880.5
37.18,129.102
37.31,50.8477
37.44,27.5809
37.57,17.534
37.7,12.2811
37.83,9.18943
37.96,7.21592
38.09,5.87924
38.22,4.93195
38.35,4.23616
38.48,3.71007
38.61,3.30264
38.74,5.53567
38.87,6.73422
39,6.79352
39.13,6.91776
39.26,7.10302
39.39,7.34825
39.52,7.65477
39.65,8.02616
39.78,8.46822
39.91,8.98921
40.04,9.6002
40.17,10.3156
40.3,11.1543
40.43,12.1404
40.56,13.3055
40.69,14.6908
40.82,16.3513
40.95,18.3607
41.08,20.8199
41.21,23.8701
41.34,27.7133
41.47,32.6461
41.6,39.1193
41.73,47.8444
41.86,59.9984
41.99,77.6437
42.12,104.67
42.25,149.156
42.38,230.264
42.51,403.337
42.64,890.3
42.77,3490.85
42.9,73459.6
43.03,23036.2
43.16,1353.06
43.29,516.981
43.42,274.942
43.55,171.199
43.68,117.098
43.81,85.2864
43.94,64.9864
44.07,51.2374
44.2,41.4926
44.33,34.3339
44.46,28.9202
44.59,24.7268
44.72,21.4124
44.85,18.7474
44.98,16.5724
45.11,14.7742
45.24,13.2706
45.37,12.0004
45.5,10.9178
45.63,9.98757
45.76,9.18235
45.89,8.48072
46.02,7.86563
46.15,7.32342
46.28,6.843
46.41,6.41534
46.54,6.03298
46.67,5.68973
46.8,5.38045
46.93,5.10078
47.06,4.84708
47.19,4.61621
47.32,4.40552
47.45,4.21272
47.58,4.03585
47.71,3.87319
47.84,3.72327
47.97,3.58478
48.1,3.4566
48.23,3.33772
48.36,3.22727
48.49,3.12446
48.62,3.02861
48.75,2.93911
48.88,2.8554
49.01,2.777
49.14,1.58146
49.27,1
49.4,1
49.53,1
49.66,1
49.79,1
49.92,1
50.05,1
50.18,1
50.31,1
50.44,1
50.57,1
50.7,1
50.83,1
50.96,1
51.09,1
51.22,1
51.35,1
51.48,1
51.61,1
51.74,1
51.87,1
52,1
52.13,1
52.26,1
52.39,1
52.52,1
52.65,1
52.78,1
52.91,1
53.04,1
53.17,1
53.3,1
53.43,1
53.56,1
53.69,1
53.82,1
53.95,1
54.08,1
54.21,1
54.34,1
54.47,1
54.6,1
54.73,1
54.86,1
54.99,1
55.12,1
55.25,1
55.38,1
55.51,1
55.64,1
55.77,1
55.9,1
56.03,1
56.16,1
56.29,1
56.42,1
56.55,1
56.68,1
56.81,1
56.94,1
57.07,1
57.2,1
57.33,1
57.46,1
57.59,2.56979
57.72,3.43233
57.85,3.57606
57.98,3.73291
58.11,3.90454
58.24,4.09287
58.37,4.30013
58.5,4.52896
58.63,4.78245
58.76,5.06428
58.89,5.37884
59.02,5.73141
59.15,6.12836
59.28,6.57748
59.41,7.08833
59.54,7.67277
59.67,8.34567
59.8,9.12582
59.93,10.0373
60.06,11.1115
60.19,12.3894
60.32,13.9261
60.45,15.7968
60.58,18.1059
60.71,21.002
60.84,24.7032
60.97,29.5387
61.1,36.0261
61.23,45.0168
61.36,57.9941
61.49,77.7349
61.62,109.958
61.75,168.086
61.88,290.357
62.01,626.87
62.14,2337.13
62.27,39271.6
62.4,14055.5
62.53,2111.31
62.66,533.817
62.79,254.716
62.92,151.029
63.05,100.542
63.18,72.0059
63.31,54.2549
63.44,42.4437
63.57,34.1808
63.7,28.1708
63.83,23.6613
63.96,20.1904
64.09,17.4613
64.22,15.2765
64.35,13.5
64.48,12.0361
64.61,10.8153
64.74,9.78659
64.87,8.91169
65,8.16135
65.13,7.51298
65.26,6.9489
65.39,6.45509
65.52,6.02035
65.65,5.63561
65.78,5.29348
65.91,4.98789
66.04,4.71382
66.17,4.46707
66.3,4.24413
66.43,4.04203
66.56,3.85825
66.69,3.69064
66.82,3.53736
66.95,3.39682
67.08,3.26764
67.21,3.14863
67.34,3.03875
67.47,2.9371
67.6,2.84286
67.73,2.75534
67.86,2.67391
67.99,2.59801
68.12,2.52717
68.25,2.46094
68.38,2.39892
68.51,2.34077
68.64,2.28617
68.77,2.23485
68.9,2.18653
69.03,2.141
69.16,2.09804
69.29,2.05746
69.42,1.54625
69.55,1.63833
69.68,1.31606
69.81,1.33309
69.94,1.35153
70.07,1.37155
70.2,1.39333
70.33,1.41708
70.46,1.44305
70.59,1.47153
70.72,1.50285
70.85,1.53739
70.98,1.57562
71.11,1.61808
71.24,1.66543
71.37,1.71844
71.5,1.77805
71.63,1.8454
71.76,1.92191
71.89,2.0093
72.02,2.10975
72.15,2.226
72.28,2.36155
72.41,2.52093
72.54,2.71008
72.67,2.93692
72.8,3.2122
72.93,3.5508
73.06,3.9738
73.19,4.95967
73.32,5.89702
73.45,6.86387
73.58,8.18315
73.71,10.0562
73.84,12.8541
73.97,17.3257
74.1,25.1811
74.23,41.0978
74.36,82.1775
74.49,258.541
74.62,4301.79
74.75,609.006
74.88,1669.45
75.01,135.914
75.14,54.0197
75.27,30.669
75.4,20.5991
75.53,15.3314
75.66,12.263
75.79,10.3625
75.92,9.15213
76.05,8.387
76.18,7.93339
76.31,7.71648
76.44,7.69596
76.57,7.85427
76.7,8.19133
76.83,8.7232
76.96,9.48402
77.09,10.5316
77.22,11.9583
77.35,13.9117
77.48,16.6328
77.61,20.533
77.74,26.3576
77.87,35.5726
78,51.4008
78.13,82.1623
78.26,155.449
78.39,415.092
78.52,4484.77
78.65,2224.02
78.78,4523.09
78.91,614.469
79.04,169.917
79.17,84.3386
79.3,51.5306
79.43,35.1883
79.56,25.7808
79.69,19.8393
79.82,15.8348
79.95,13.002
80.08,10.9214
80.21,9.34675
80.34,8.12519
80.47,7.15783
80.6,6.37825
80.73,5.74048
80.86,5.21184
80.99,4.7686
81.12,4.39315
81.25,4.07224
81.38,3.79571
81.51,3.55565
81.64,3.34587
81.77,3.16144
81.9,2.99838
82.03,2.85349
82.16,2.72414
82.29,2.60816
82.42,2.50375
82.55,2.32456
82.68,2.24173
82.81,2.12455
82.94,2.05734
83.07,1.99598
83.2,1.93982
83.33,1.88828
83.46,1.84087
83.59,1.79715
83.72,1.75676
83.85,1.71937
83.98,1.68468
84.11,1.65244
84.24,1.62243
84.37,1.59444
84.5,1.64739
84.63,1.62516
84.76,1.64375
84.89,1.62577
85.02,1.60925
85.15,1.59408
85.28,1.58019
85.41,1.56751
85.54,1.55596
85.67,1.5455
85.8,1.53607
85.93,1.52762
86.06,1.52012
86.19,1.51354
86.32,1.50786
86.45,1.50304
86.58,1.49908
86.71,1.49597
86.84,1.30412
86.97,1.3085
87.1,1.21932
87.23,1.22775
87.36,1.23668
87.49,1.24615
87.62,1.25619
87.75,1.26687
87.88,1.27822
88.01,1.29032
88.14,1.30322
88.27,1.317
88.4,1.33175
88.53,1.34754
88.66,1.3645
88.79,1.38272
88.92,1.40235
89.05,1.42354
89.18,1.44644
89.31,1.47125
89.44,1.49818
89.57,1.5275
89.7,1.55949
89.83,1.59448
89.96,1.63287
90.09,1.6751
90.22,1.7217
90.35,1.77332
90.48,1.83068
90.61,1.89467
90.74,1.96638
90.87,2.04707
91,2.13833
91.13,2.24209
91.26,2.36074
91.39,2.49729
91.52,2.65553
91.65,2.84032
91.78,3.05797
91.91,3.3168
92.04,3.62793
92.17,4.00651
92.3,4.47366
92.43,5.0595
92.56,5.80817
92.69,6.78661
92.82,8.10032
92.95,9.92373
93.08,12.5627
93.21,16.5959
93.34,23.232
93.47,35.3727
93.6,61.5778
93.73,137.415
93.86,625.165
93.99,3065.98
94.12,412.306
94.25,1819.07
94.38,286.735
94.51,81.4391
94.64,41.2538
94.77,25.6661
94.9,17.8306
95.03,13.2958
95.16,10.4001
95.29,8.43528
95.42,7.03752
95.55,6.00618
95.68,5.22273
95.81,4.61325
95.94,4.12962
96.07,3.73936
96.2,3.41989
96.33,3.15508
96.46,2.93318
96.59,2.74545
96.72,2.58528
96.85,2.44759
96.98,2.32844
97.11,2.2247
97.24,2.1339
97.37,2.05404
97.5,1.98351
97.63,1.92098
97.76,1.86537
97.89,1.81576
98.02,1.96402
98.15,1.92866
98.28,1.89753
98.41,1.87019
98.54,1.94457
98.67,1.92599
98.8,1.9103
98.93,1.89729
99.06,1.88676
99.19,1.87854
99.32,1.87251
99.45,1.86855
99.58,1.86657
99.71,1.86651
99.84,1.86832
99.97,1.87195
100.1,1.87739
100.23,1.88463
100.36,1.89369
100.49,1.73833
100.62,1.75754
100.75,1.69409
100.88,1.71983
101.01,1.74717
101.14,1.77626
101.27,1.80728
101.4,1.84041
101.53,1.87587
101.66,1.91392
101.79,1.95485
101.92,1.99898
102.05,2.0467
102.18,2.09847
102.31,2.15481
102.44,2.21637
102.57,2.28389
102.7,2.35829
102.83,2.44066
102.96,2.53237
103.09,2.6351
103.22,2.75095
103.35,2.88259
103.48,3.03349
103.61,3.20814
103.74,3.41257
103.87,3.65494
104,3.94659
104.13,4.30367
104.26,4.7499
104.39,5.3213
104.52,6.07495
104.65,7.10589
104.78,8.58264
104.91,10.8288
105.04,14.5356
105.17,21.4148
105.3,36.7622
105.43,84.4153
105.56,482.717
105.69,814.731
105.82,147.519
105.95,367.717
106.08,310.381
106.21,56.8378
106.34,27.6582
106.47,18.1386
106.6,13.8752
106.73,11.6746
106.86,10.4854
106.99,9.8766
107.12,9.64707
107.25,9.69751
107.38,9.98068
107.51,10.4803
107.64,11.2024
107.77,12.1723
107.9,13.4367
108.03,15.0693
108.16,17.1818
108.29,19.9438
108.42,23.6188
108.55,28.6294
108.68,35.6876
108.81,46.0678
108.94,62.2435
109.07,89.5627
109.2,141.491
109.33,260.688
109.46,648.222
109.59,4107.86
109.72,4503.63
109.85,915.523
109.98,1898.89
110.11,2777.15
110.24,433.926
110.37,181.349
110.5,103.343
110.63,68.134
110.76,48.8892
110.89,37.0826
111.02,29.2596
111.15,23.7829
111.28,19.7865
111.41,16.7744
111.54,14.444
111.67,12.602
111.8,11.2562
111.93,10.0467
112.06,9.04536
112.19,8.20672
112.32,7.56514
112.45,6.96056
112.58,6.44046
112.71,5.98982
112.84,5.59685
112.97,5.25216
113.1,4.88379
113.23,4.61667
113.36,4.37909
113.49,4.13488
113.62,3.94582
113.75,3.77588
113.88,3.62264
114.01,3.48408
114.14,3.35849
114.27,3.24438
114.4,3.1405
114.53,3.04574
114.66,2.95918
114.79,2.87999
114.92,2.80745
115.05,2.74093
115.18,2.6799
115.31,2.62385
115.44,2.57238
115.57,2.52509
115.7,2.48167
115.83,2.4418
115.96,2.40523
116.09,2.37172
116.22,2.34107
116.35,2.31308
116.48,2.2876
116.61,2.26447
116.74,2.24357
116.87,2.22477
117,2.20798
117.13,2.1931
117.26,2.18005
117.39,2.16877
117.52,1.73728
117.65,1.74296
117.78,1.74961
117.91,1.54567
118.04,1.5611
118.17,1.57719
118.3,1.59398
118.43,1.61152
118.56,1.62984
118.69,1.64901
118.82,1.66906
118.95,1.69006
119.08,1.71206
119.21,1.73513
119.34,1.75934
119.47,1.78477
119.6,1.8115
119.73,1.83963
119.86,1.86924
119.99,1.90045
120.12,1.93337
120.25,1.96813
120.38,2.00487
120.51,2.04375
120.64,2.08493
120.77,2.12861
120.9,2.17498
121.03,2.24251
121.16,2.29519
121.29,2.35132
121.42,2.41122
121.55,2.47523
121.68,2.54373
121.81,2.61717
121.94,2.70519
122.07,2.79013
122.2,2.88165
122.33,2.98046
122.46,3.08736
122.59,3.20327
122.72,3.32923
122.85,3.46644
122.98,3.61629
123.11,3.78038
123.24,3.9606
123.37,4.15914
123.5,4.37858
123.63,4.62198
123.76,4.89297
123.89,5.19592
124.02,5.53608
124.15,5.91984
124.28,6.35505
124.41,6.85139
124.54,7.42094
124.67,8.07896
124.8,8.84492
124.93,9.74399
125.06,10.8092
125.19,12.0845
125.32,13.6298
125.45,15.5277
125.58,17.8959
125.71,20.9058
125.84,24.8157
125.97,30.03
126.1,37.212
126.23,47.514
126.36,63.0873
126.49,88.3459
126.62,133.579
126.75,227.564
126.88,478.513
127.01,1743.37
127.14,5822.52
127.27,1523.19
127.4,578
127.53,667.938
127.66,2454.37
127.79,1441.11
127.92,352.728
128.05,164.568
128.18,98.5179
128.31,66.8608
128.44,48.967
128.57,37.7341
128.7,30.1576
128.83,24.7745
128.96,20.7964
129.09,17.7646
129.22,15.3959
129.35,13.5072
129.48,11.9751
129.61,10.7141
129.74,9.66298
129.87,8.77725
130,8.0236
130.13,7.37683
130.26,6.81752
130.39,6.33049
130.52,5.90376
130.65,5.52775
130.78,5.19471
130.91,4.89834
131.04,4.63346
131.17,4.39578
131.3,4.18171
131.43,3.98826
131.56,3.81288
131.69,3.65342
131.82,3.50804
131.95,3.37516
132.08,3.25342
132.21,3.14164
132.34,3.0388
132.47,2.944
132.6,2.85647
132.73,2.77551
132.86,2.70052
132.99,2.63096
133.12,2.56637
133.25,2.50631
133.38,2.45043
133.51,2.39837
133.64,2.34985
133.77,2.30458
133.9,2.26235
134.03,2.22292
134.16,2.18611
134.29,2.15173
134.42,2.11964
134.55,2.08969
134.68,2.06175
134.81,2.03571
134.94,2.01147
135.07,1.98893
135.2,1.96801
135.33,1.94864
135.46,1.93075
135.59,1.91428
135.72,1.89918
135.85,1.88542
135.98,1.87295
136.11,1.86174
136.24,1.85176
136.37,1.84301
136.5,1.83546
136.63,1.82912
136.76,1.82397
136.89,1.82003
137.02,1.81731
137.15,1.81583
137.28,1.81562
137.41,1.8167
137.54,1.52221
137.67,1.53331
137.8,1.5456
137.93,1.55917
138.06,1.57412
138.19,1.44437
138.32,1.46596
138.45,1.48917
138.58,1.51416
138.71,1.54113
138.84,1.57028
138.97,1.60188
139.1,1.63618
139.23,1.67352
139.36,1.71427
139.49,1.75886
139.62,1.80778
139.75,1.86163
139.88,1.92109
140.01,1.98697
140.14,2.06024
140.27,2.14206
140.4,2.23382
140.53,2.33721
140.66,2.45431
140.79,2.58767
140.92,2.74048
141.05,2.91675
141.18,3.12162
141.31,3.36168
141.44,3.64559
141.57,3.98489
141.7,4.39516
141.83,4.89802
141.96,5.52403
142.09,6.31768
142.22,7.34574
142.35,8.71233
142.48,10.5872
142.61,13.2624
142.74,17.2768
142.87,23.7132
143,35.0115
143.13,57.6704
143.26,117.213
143.39,339.866
143.52,766.711
143.65,384.533
143.78,136.806
143.91,77.426
144.04,69.0292
144.17,106.609
144.3,276.281
144.43,348.231
144.56,127.1
144.69,51.2917
144.82,29.0472
144.95,19.3164
145.08,14.0609
145.21,10.8704
145.34,8.77033
145.47,7.30405
145.6,6.23383
145.73,5.42526
145.86,4.79732
145.99,4.29859
146.12,3.89506
146.25,3.56338
146.38,3.28708
146.51,3.05422
146.64,2.85598
146.77,2.68569
146.9,2.53824
147.03,2.40966
147.16,2.29682
147.29,2.1972
147.42,2.10879
147.55,2.02995
147.68,1.95934
147.81,1.89582
147.94,1.83848
148.07,1.78653
148.2,1.73931
148.33,1.69625
148.46,1.65688
148.59,1.62078
148.72,1.5876
148.85,1.55703
148.98,1.5288
149.11,1.50268
149.24,1.47846
149.37,1.45595
149.5,1.43501
149.63,1.41549
149.76,1.39725
149.89,1.3802
150.02,1.36423
150.15,1.34925
150.28,1.33518
150.41,1.32194
150.54,1.30948
150.67,1.29773
150.8,1.28663
150.93,1.27615
151.06,1.26624
151.19,1.25685
151.32,1.24795
151.45,1.23951
151.58,1.23149
151.71,1.22387
151.84,1.21662
151.97,1.20972
152.1,1.20314
152.23,1.19687
152.36,1.19089
152.49,1.18517
152.62,1.17971
152.75,1.17449
152.88,1.16949
153.01,1.1647
153.14,1.16012
153.27,1.15572
153.4,1.1515
153.53,1.14746
153.66,1.14357
153.79,1.13983
153.92,1.13624
154.05,1.13279
154.18,1.12946
154.31,1.12626
154.44,1.12318
154.57,1.1202
154.7,1.11734
154.83,1.11458
154.96,1.11191
155.09,1.10933
155.22,1.10685
155.35,1.10444
155.48,1.10212
155.61,1.09987
155.74,1.0977
155.87,1.0956
156,1.09356
156.13,1.09159
156.26,1.08968
156.39,1.08783
156.52,1.08604
156.65,1.0843
156.78,1.08261
156.91,1.08098
157.04,1.07939
157.17,1.07785
157.3,1.07635
157.43,1.07489
157.56,1.07348
157.69,1.07211
157.82,1.07077
157.95,1.06947
158.08,1.06821
158.21,1.06698
158.34,1.06578
158.47,1.06462
158.6,1.06349
158.73,1.02243
158.86,1.02203
158.99,1.02164
159.12,1.02126
159.25,1.02089
159.38,1.02053
159.51,1
159.64,1
159.77,1
159.9,1
160.03,1
160.16,1
160.29,1
160.42,1
160.55,1
160.68,1
160.81,1
160.94,1
161.07,1
161.2,1
161.33,1
161.46,1
161.59,1
161.72,1
161.85,1
161.98,1
162.11,1
162.24,1
162.37,1
162.5,1
162.63,1
162.76,1
162.89,1
163.02,1
163.15,1
163.28,1
163.41,1
163.54,1
163.67,1
163.8,1
163.93,1
164.06,1
164.19,1
164.32,1
164.45,1
164.58,1
164.71,1
164.84,1
164.97,1
165.1,1
165.23,1
165.36,1
165.49,1
165.62,1
165.75,1
165.88,1
166.01,1
166.14,1
166.27,1
166.4,1
166.53,1
166.66,1
166.79,1
166.92,1
167.05,1
167.18,1
167.31,1
167.44,1
167.57,1
167.7,1
167.83,1
167.96,1
168.09,1
168.22,1
168.35,1
168.48,1
168.61,1
168.74,1
168.87,1
169,1
169.13,1
169.26,1
169.39,1
169.52,1
169.65,1
169.78,1
169.91,1
170.04,1
170.17,1
170.3,1
170.43,1
170.56,1
170.69,1
170.82,1
170.95,1
171.08,1
171.21,1
171.34,1
171.47,1
171.6,1
171.73,1
171.86,1
171.99,1
172.12,1
172.25,1
172.38,1
172.51,1
172.64,1
172.77,1
172.9,1
173.03,1
173.16,1
173.29,1
173.42,1
173.55,1
173.68,1
173.81,1
173.94,1
174.07,1
174.2,1
174.33,1
174.46,1
174.59,1
174.72,1
174.85,1
174.98,1
175.11,1
175.24,1
175.37,1
175.5,1
175.63,1
175.76,1
175.89,1
176.02,1
176.15,1
176.28,1
176.41,1
176.54,1
176.67,1
176.8,1
176.93,1
177.06,1
177.19,1
177.32,1
177.45,1
177.58,1
177.71,1
177.84,1
177.97,1
178.1,1
178.23,1
178.36,1
178.49,1
178.62,1
178.75,1
178.88,1
179.01,1
179.14,1
179.27,1
179.4,1
179.53,1
179.66,1
179.79,1
179.92,1
180,1