File: crystal_morphing_with_bayesian_for_xrd/struct/Li5BiO5.csv
0.000000000000000000e+00,1.12105
0.13,1.12123
0.26,1.12141
0.39,1.12159
0.52,1.12177
0.65,1.12195
0.78,1.12213
0.91,1.12231
1.04,1.12249
1.17,1.12267
1.3,1.12285
1.43,1.12303
1.56,1.12321
1.69,1.12339
1.82,1.12358
1.95,1.12376
2.08,1.12394
2.21,1.12413
2.34,1.12431
2.47,1.1245
2.6,1.12468
2.73,1.12487
2.86,1.12505
2.99,1.12524
3.12,1.12543
3.25,1.12561
3.38,1.1258
3.51,1.12599
3.64,1.12618
3.77,1.12637
3.9,1.12656
4.03,1.12674
4.16,1.12693
4.29,1.12713
4.42,1.12732
4.55,1.12751
4.68,1.1277
4.81,1.12789
4.94,1.12809
5.07,1.12828
5.2,1.12847
5.33,1.12867
5.46,1.12886
5.59,1.12906
5.72,1.12925
5.85,1.12945
5.98,1.12964
6.11,1.12984
6.24,1.13004
6.37,1.13023
6.5,1.13043
6.63,1.13063
6.76,1.13083
6.89,1.13103
7.02,1.13123
7.15,1.13143
7.28,1.13163
7.41,1.13183
7.54,1.13203
7.67,1.13224
7.8,1.13244
7.93,1.13264
8.06,1.13285
8.19,1.13305
8.32,1.13325
8.45,1.13346
8.58,1.13367
8.71,1.13387
8.84,1.13408
8.97,1.13428
9.1,1.13449
9.23,1.1347
9.36,1.13491
9.49,1.13512
9.62,1.13533
9.75,1.13554
9.88,1.13575
10.01,1.13596
10.14,1.13617
10.27,1.13638
10.4,1.13659
10.53,1.13681
10.66,1.13702
10.79,1.13723
10.92,1.13745
11.05,1.13766
11.18,1.13788
11.31,1.13809
11.44,9.10418
11.57,13.9448
11.7,15.0028
11.83,16.1975
11.96,17.5536
12.09,19.1014
12.22,20.8788
12.35,22.9337
12.48,25.3269
12.61,28.137
12.74,31.4669
12.87,35.453
13,40.2799
13.13,46.2018
13.26,53.5768
13.39,62.9225
13.52,75.0088
13.65,91.0225
13.78,112.869
13.91,143.769
14.04,189.513
14.17,261.389
14.3,389.963
14.43,625.163
14.56,1167.24
14.69,2927.08
14.82,19468.9
14.95,240433
15.08,5028.17
15.21,1612.91
15.34,790.671
15.47,472.538
15.6,317.765
15.73,231.706
15.86,179.702
15.99,146.688
16.12,125.344
16.25,111.876
16.38,104.309
16.51,101.773
16.64,104.241
16.77,112.584
16.9,128.999
17.03,158.182
17.16,210.431
17.29,311.008
17.42,535.154
17.55,1196.95
17.68,5044.13
17.81,196944
17.94,4072.08
18.07,1065.88
18.2,488.383
18.33,282.213
18.46,197.908
18.59,145.666
18.72,114.294
18.85,94.2012
18.98,80.7939
19.11,71.6548
19.24,65.426
19.37,61.3102
19.5,58.8314
19.63,64.2753
19.76,68.2791
19.89,70.3623
20.02,70.1328
20.15,73.4427
20.28,80.3324
20.41,89.3921
20.54,101.284
20.67,117.027
20.8,138.23
20.93,167.529
21.06,209.483
21.19,272.531
21.32,373.765
21.45,552.356
21.58,915.573
21.71,1853.9
21.84,5832.26
21.97,279767
22.1,33111.5
22.23,3350.5
22.36,1423.96
22.49,880.36
22.62,707.087
22.75,723.364
22.88,956.376
23.01,1740.7
23.14,5381.67
23.27,265912
23.4,22696
23.53,2651.2
23.66,1102.35
23.79,618.937
23.92,406.019
24.05,293.454
24.18,226.944
24.31,184.769
24.44,156.865
24.57,138.088
24.7,125.633
24.83,117.937
24.96,114.173
25.09,114.021
25.22,117.582
25.35,125.413
25.48,138.685
25.61,159.541
25.74,191.879
25.87,243.085
26,328.322
26.13,482.589
26.26,803.389
26.39,1642.19
26.52,5260.17
26.65,233656
26.78,41199.8
26.91,3028.43
27.04,1181.26
27.17,632.868
27.3,397.634
27.43,269.996
27.56,198.583
27.69,153.267
27.82,122.798
27.95,101.43
28.08,85.9887
28.21,74.6149
28.34,66.1786
28.47,59.983
28.6,55.6136
28.73,48.4097
28.86,47.4655
28.99,48.3037
29.12,51.4443
29.25,57.9928
29.38,70.3013
29.51,93.821
29.64,143.35
29.77,271.369
29.9,792.162
30.03,26385.3
30.16,14645.7
30.29,626.948
30.42,234.116
30.55,126.524
30.68,81.8178
30.81,58.951
30.94,45.694
31.07,37.3522
31.2,35.1213
31.33,33.234
31.46,30.9568
31.59,29.548
31.72,28.8232
31.85,28.6842
31.98,29.0939
32.11,30.9299
32.24,28.4476
32.37,31.1093
32.5,34.7471
32.63,39.7353
32.76,46.7129
32.89,56.8291
33.02,72.3177
33.15,103.117
33.28,151.661
33.41,262.266
33.54,633.448
33.67,6366.86
33.8,21821.6
33.93,1175.36
34.06,400.005
34.19,253.641
34.32,220.088
34.45,234.82
34.58,294.431
34.71,432.682
34.84,783.68
34.97,2090.76
35.1,41086
35.23,65632.9
35.36,2654.07
35.49,930.613
35.62,571.308
35.75,535.639
35.88,971.946
36.01,26903.9
36.14,11117.6
36.27,713.357
36.4,453.709
36.53,462.303
36.66,622.4
36.79,1113.72
36.92,3318.82
37.05,112810
37.18,39551.2
37.31,2865.64
37.44,4612.69
37.57,89465
37.7,15322.6
37.83,1508.1
37.96,683.679
38.09,421.4
38.22,306.669
38.35,252.25
38.48,232.667
38.61,244.014
38.74,301.559
38.87,472.011
39,1118.01
39.13,15739
39.26,26984.9
39.39,1848.56
39.52,566.538
39.65,306.437
39.78,213.083
39.91,174.714
40.04,163.969
40.17,175.391
40.3,216.798
40.43,321.407
40.56,626.273
40.69,2165.24
40.82,60343.5
40.95,18520.3
41.08,1016.72
41.21,400.295
41.34,224.274
41.47,149.272
41.6,114.021
41.73,93.5733
41.86,80.0946
41.99,71.2293
42.12,66.4148
42.25,64.2136
42.38,64.2787
42.51,66.634
42.64,71.6888
42.77,80.4077
42.9,94.7707
43.03,117.485
43.16,160.669
43.29,255.828
43.42,502.239
43.55,1654.35
43.68,47211.6
43.81,20462.4
43.94,980.685
44.07,410.542
44.2,277.276
44.33,250.977
44.46,293.112
44.59,467.456
44.72,1371.17
44.85,32387.2
44.98,13848.6
45.11,856.938
45.24,540.365
45.37,609.677
45.5,1006.24
45.63,2673.64
45.76,55047.7
45.89,43801.5
46.02,4040.66
46.15,1147.23
46.28,593.724
46.41,396.635
46.54,313.92
46.67,285.598
46.8,295.79
46.93,350.119
47.06,479.064
47.19,792.561
47.32,1803.88
47.45,13911.8
47.58,55709.9
47.71,28153.4
47.84,2409.76
47.97,874.879
48.1,480.746
48.23,318.29
48.36,236.253
48.49,190.84
48.62,166.367
48.75,156.698
48.88,161.422
49.01,187.053
49.14,258.651
49.27,491.587
49.4,2323
49.53,11280.3
49.66,5773.84
49.79,609.732
49.92,479.6
50.05,1036.46
50.18,21702.5
50.31,11492.8
50.44,685.151
50.57,324.983
50.7,264.482
50.83,288.483
50.96,398.047
51.09,730.618
51.22,2377.69
51.35,45720.8
51.48,35601.2
51.61,6796.78
51.74,1370.82
51.87,503.229
52,331.482
52.13,289.456
52.26,334.047
52.39,553.159
52.52,1773.9
52.65,35243.2
52.78,19275.4
52.91,1071.44
53.04,387.175
53.17,222.966
53.3,159.214
53.43,130.04
53.56,115.048
53.69,109.899
53.82,111.158
53.95,118.105
54.08,133.206
54.21,161.586
54.34,212.2
54.47,308.661
54.6,525.633
54.73,1211.38
54.86,8665.34
54.99,15923.2
55.12,13971.8
55.25,15934.7
55.38,6329.81
55.51,7512.57
55.64,3559.83
55.77,1971.24
55.9,413.535
56.03,239.91
56.16,174.815
56.29,143.825
56.42,128.729
56.55,123.469
56.68,125.823
56.81,136.734
56.94,159.182
57.07,200.79
57.2,282.664
57.33,480.138
57.46,1322.87
57.59,18546.6
57.72,10552.3
57.85,33886.8
57.98,14968.5
58.11,12092.1
58.24,11799.8
58.37,973.374
58.5,459.332
58.63,303.34
58.76,241.701
58.89,224.581
59.02,244.043
59.15,315.51
59.28,513.253
59.41,1226.17
59.54,12477.1
59.67,10749.4
59.8,13195.9
59.93,1025.1
60.06,423.368
60.19,243.57
60.32,164.055
60.45,121.487
60.58,95.984
60.71,80.1097
60.84,69.3781
60.97,61.873
61.1,58.258
61.23,55.4446
61.36,54.245
61.49,54.1442
61.62,55.6459
61.75,58.3376
61.88,64.5703
62.01,76.8727
62.14,102.88
62.27,174.429
62.4,793.052
62.53,1830.83
62.66,2552.01
62.79,515.509
62.92,3149.67
63.05,3052.75
63.18,5061.27
63.31,448.319
63.44,301.71
63.57,369.815
63.7,846.071
63.83,13937.7
63.96,3383.22
64.09,2293.28
64.22,8942.31
64.35,6566.25
64.48,27786.4
64.61,12306.7
64.74,1828.47
64.87,584.309
65,370.753
65.13,330.539
65.26,411.63
65.39,899.512
65.52,13635.1
65.65,3093.67
65.78,2344.24
65.91,7829.14
66.04,19547
66.17,14598.6
66.3,1693.13
66.43,572.941
66.56,367.195
66.69,335.857
66.82,456.129
66.95,1196.7
67.08,21038.7
67.21,3842.37
67.34,2699.11
67.47,441.917
67.6,222.254
67.73,148.259
67.86,114.365
67.99,96.8322
68.12,87.2021
68.25,83.0628
68.38,83.3733
68.51,88.3599
68.64,99.7305
68.77,122.194
68.9,169.261
69.03,292.025
69.16,840.336
69.29,13718.9
69.42,2354.13
69.55,2247.78
69.68,787.344
69.81,5732.42
69.94,1524.28
70.07,1293.11
70.2,6424.68
70.33,3880.53
70.46,9271.31
70.59,855.95
70.72,660.224
70.85,2078.36
70.98,7561.93
71.11,5552.1
71.24,2429.69
71.37,9941.83
71.5,4341.01
71.63,1641.19
71.76,2891.61
71.89,6056.18
72.02,6802.6
72.15,14023.4
72.28,2249.21
72.41,3188.6
72.54,678.797
72.67,763.489
72.8,2021.99
72.93,25061.3
73.06,5251.56
73.19,10037.4
73.32,936.176
73.45,416.269
73.58,272.79
73.71,222.428
73.84,217.693
73.97,263.853
74.1,456.193
74.23,3120.39
74.36,2270.31
74.49,10636.6
74.62,2320.44
74.75,18214.1
74.88,2389.87
75.01,4124.94
75.14,490.907
75.27,239.397
75.4,157.988
75.53,121.268
75.66,102.749
75.79,94.8951
75.92,96.0097
76.05,110.749
76.18,165.294
76.31,574.721
76.44,2306.89
76.57,910.805
76.7,535.165
76.83,208.31
76.96,229.527
77.09,375.912
77.22,1115.16
77.35,13769.2
77.48,1986.35
77.61,4813.76
77.74,2689.29
77.87,8260.32
78,3337.01
78.13,2066.18
78.26,977.596
78.39,6351.08
78.52,1092.04
78.65,2079.42
78.78,862.695
78.91,9445.24
79.04,1400.14
79.17,5003.96
79.3,465.461
79.43,225.597
79.56,177.437
79.69,185.368
79.82,255.369
79.95,527.6
80.08,3773.92
80.21,4392.34
80.34,3789.45
80.47,1364.64
80.6,388.587
80.73,556.84
80.86,1572.61
80.99,735.494
81.12,4402.44
81.25,692.777
81.38,2333.36
81.51,301.669
81.64,206.007
81.77,268.072
81.9,655.708
82.03,8506.02
82.16,1322.94
82.29,4982.34
82.42,534.568
82.55,240.612
82.68,205.943
82.81,269.522
82.94,644.195
83.07,7725.32
83.2,1131.06
83.33,4323.87
83.46,883.498
83.59,4953.27
83.72,808.81
83.85,2708.57
83.98,1258.59
84.11,12072.6
84.24,6265.12
84.37,6676.93
84.5,2982.48
84.63,528.211
84.76,430.246
84.89,917.434
85.02,9805.6
85.15,1238.33
85.28,5083.22
85.41,541.03
85.54,211.94
85.67,134.562
85.8,103.664
85.93,89.5384
86.06,83.3287
86.19,83.1279
86.32,88.0694
86.45,100.126
86.58,123.973
86.71,175.219
86.84,315.907
86.97,1136.78
87.1,6715.11
87.23,1096.16
87.36,4197.07
87.49,3250.12
87.62,2577.59
87.75,1547.22
87.88,1815.38
88.01,668.533
88.14,2929.06
88.27,1802.16
88.4,12046.1
88.53,3793.03
88.66,10150.5
88.79,3750.66
88.92,8305.8
89.05,1443.23
89.18,3451.62
89.31,480.633
89.44,258.453
89.57,193.483
89.7,172.481
89.83,177.288
89.96,212.649
90.09,314.403
90.22,689.708
90.35,4881.66
90.48,10418.8
90.61,3250.46
90.74,4627.31
90.87,1516.73
91,553.286
91.13,2048.66
91.26,895.044
91.39,783.075
91.52,1052.67
91.65,2657.55
91.78,2472.7
91.91,1618.17
92.04,1028.89
92.17,1054.04
92.3,1782.06
92.43,4857.37
92.56,955.347
92.69,4001.87
92.82,654.724
92.95,771.928
93.08,6434.63
93.21,1343.22
93.34,2014.43
93.47,2196.15
93.6,6223.19
93.73,1128.73
93.86,5770.22
93.99,1037.95
94.12,1026.08
94.25,577.004
94.38,210.845
94.51,188.196
94.64,302.083
94.77,2276.45
94.9,614.775
95.03,606.313
95.16,835.324
95.29,321.328
95.42,651.885
95.55,6029.34
95.68,1084.86
95.81,1456.34
95.94,1517.2
96.07,932.788
96.2,1475.77
96.33,362.72
96.46,1345.55
96.59,253.678
96.72,144.116
96.85,130.607
96.98,142.369
97.11,179.632
97.24,270.742
97.37,563.776
97.5,3479.77
97.63,6108.39
97.76,1357.94
97.89,4034.78
98.02,1655.1
98.15,4187.09
98.28,2131
98.41,1622.88
98.54,8939.59
98.67,1494.59
98.8,2611.66
98.93,8176.38
99.06,1353.19
99.19,2640.53
99.32,3796
99.45,6924.75
99.58,5916.16
99.71,4317.08
99.84,2201.56
99.97,1528.2
100.1,422.173
100.23,311.146
100.36,347.787
100.49,731.393
100.62,4808.75
100.75,921.636
100.88,1226.59
101.01,2911.78
101.14,4639.74
101.27,2723.03
101.4,7605.06
101.53,7049.32
101.66,2447.29
101.79,2473.86
101.92,2625.57
102.05,1345.06
102.18,5617.79
102.31,1241.78
102.44,1248.78
102.57,2573.23
102.7,416.907
102.83,226.251
102.96,212.995
103.09,406.755
103.22,2618.97
103.35,475.286
103.48,415.677
103.61,1138.29
103.74,189.883
103.87,105.572
104,83.4375
104.13,76.0042
104.26,75.1138
104.39,79.8135
104.52,92.2905
104.65,121.184
104.78,214.448
104.91,1152.29
105.04,688.773
105.17,355.394
105.3,1108.01
105.43,1855.75
105.56,2203.33
105.69,2590.34
105.82,2389.86
105.95,6964.99
106.08,2570.97
106.21,1276.48
106.34,4616.18
106.47,5321.38
106.6,941.04
106.73,1164.87
106.86,2243.86
106.99,511.182
107.12,493.72
107.25,1373.13
107.38,5437.7
107.51,1285.68
107.64,3130.74
107.77,3021.73
107.9,974.272
108.03,3028.64
108.16,2258.89
108.29,588.114
108.42,1149.45
108.55,1244.76
108.68,660.685
108.81,3205.78
108.94,1420.56
109.07,814.016
109.2,3653.87
109.33,4505.63
109.46,1280.39
109.59,1256.85
109.72,1972.26
109.85,663.627
109.98,213.619
110.11,129.001
110.24,94.7457
110.37,76.9806
110.5,66.5201
110.63,60.3546
110.76,56.8011
110.89,55.2371
111.02,55.3679
111.15,57.1982
111.28,61.0122
111.41,67.4886
111.54,78.028
111.67,95.6336
111.8,127.649
111.93,196.23
112.06,404.002
112.19,2100.03
112.32,1968.87
112.45,1365.3
112.58,5401.25
112.71,2230.83
112.84,774.658
112.97,2371.47
113.1,830.008
113.23,423.383
113.36,601.635
113.49,2635.39
113.62,3395.33
113.75,3971.57
113.88,1530.76
114.01,2403.56
114.14,1872.57
114.27,906.134
114.4,272.221
114.53,167.24
114.66,129.523
114.79,114.251
114.92,110.675
115.05,116.958
115.18,134.529
115.31,170.96
115.44,249.813
115.57,457.556
115.7,1489.24
115.83,5933.24
115.96,3638.56
116.09,1389.2
116.22,2266.69
116.35,2916.77
116.48,1276.63
116.61,426.833
116.74,377.086
116.87,981.996
117,2184.1
117.13,488.737
117.26,396.415
117.39,1215.46
117.52,743.371
117.65,790.783
117.78,3689.68
117.91,1486.07
118.04,1315.04
118.17,4357.89
118.3,2547.45
118.43,743.937
118.56,1201.43
118.69,1372.03
118.82,484.548
118.95,604.879
119.08,2481.64
119.21,2058.13
119.34,683.762
119.47,900.909
119.6,3616.95
119.73,3657.51
119.86,2693.27
119.99,1825.05
120.12,3737.67
120.25,1867.34
120.38,1966.88
120.51,2283.03
120.64,2083.4
120.77,1720.17
120.9,3906.47
121.03,2688.28
121.16,1263.49
121.29,934.891
121.42,1999.23
121.55,1012.28
121.68,380.204
121.81,317.551
121.94,440.01
122.07,1490.37
122.2,1233.48
122.33,817.739
122.46,2671.45
122.59,2857.08
122.72,3576.03
122.85,1469.16
122.98,2751.43
123.11,4736.13
123.24,4632.89
123.37,2327.31
123.5,1287.01
123.63,2324.55
123.76,2207.58
123.89,3696.8
124.02,2462.25
124.15,1016.77
124.28,1443.35
124.41,5223.07
124.54,6011.79
124.67,3360.18
124.8,3702.67
124.93,6138.31
125.06,4029.21
125.19,1848.47
125.32,2038.47
125.45,2144.45
125.58,1123.48
125.71,378.374
125.84,228.5
125.97,166.998
126.1,134.43
126.23,115.176
126.36,103.743
126.49,97.9404
126.62,97.391
126.75,104.596
126.88,127.146
127.01,196.631
127.14,574.012
127.27,1601.33
127.4,437.748
127.53,209.42
127.66,244.326
127.79,751.664
127.92,426.893
128.05,157.883
128.18,115.932
128.31,109.244
128.44,119.995
128.57,157.752
128.7,315.462
128.83,1085.37
128.96,535.499
129.09,249.624
129.22,253.414
129.35,464.067
129.48,777.11
129.61,655.06
129.74,1684.93
129.87,4545.98
130,2374.79
130.13,2956.58
130.26,1993.58
130.39,3247.94
130.52,5733.25
130.65,2199.96
130.78,1751.58
130.91,1120.99
131.04,1469.34
131.17,2078.5
131.3,2151.21
131.43,2303.28
131.56,1003.6
131.69,1787.13
131.82,2620.7
131.95,2163.69
132.08,3225.37
132.21,1814.7
132.34,1379.73
132.47,1242.02
132.6,719.057
132.73,1440
132.86,787.039
132.99,435.292
133.12,552.196
133.25,1579.27
133.38,2694.1
133.51,830.031
133.64,465.186
133.77,522.693
133.9,1256.04
134.03,2772.46
134.16,1095.86
134.29,679.37
134.42,1154.44
134.55,3293.85
134.68,2523.82
134.81,2791.16
134.94,2249.51
135.07,1010.22
135.2,1625.5
135.33,1295.18
135.46,1184.57
135.59,1502.87
135.72,695.909
135.85,785.713
135.98,2189.16
136.11,3330.54
136.24,1222.62
136.37,552.465
136.5,480.031
136.63,832.053
136.76,1968.98
136.89,1217.08
137.02,986.729
137.15,1702.64
137.28,924.228
137.41,1117.05
137.54,2000.31
137.67,1758.7
137.8,3568.1
137.93,1921.72
138.06,823.573
138.19,992.921
138.32,999.323
138.45,1165.38
138.58,1513.06
138.71,682.742
138.84,721.412
138.97,1523.47
139.1,957.312
139.23,546.469
139.36,648.231
139.49,1464.89
139.62,3493
139.75,2244.05
139.88,1057.61
140.01,920.201
140.14,1692.32
140.27,4486.58
140.4,5572.59
140.53,3299.16
140.66,1217.2
140.79,759.058
140.92,940.84
141.05,2023.48
141.18,2107.51
141.31,1479.11
141.44,559.91
141.57,299.758
141.7,209.508
141.83,165.388
141.96,140.612
142.09,125.776
142.22,116.812
142.35,111.955
142.48,110.168
142.61,111.038
142.74,114.39
142.87,120.776
143,130.763
143.13,145.684
143.26,167.901
143.39,202.498
143.52,260.117
143.65,367.798
143.78,628.439
143.91,1526.52
144.04,3236.55
144.17,2016.71
144.3,1631.08
144.43,2202.86
144.56,2862.77
144.69,4083.86
144.82,4479.03
144.95,4404.33
145.08,2023.03
145.21,1385.61
145.34,1382.89
145.47,1728.41
145.6,1995.31
145.73,1945.85
145.86,1522.48
145.99,776.946
146.12,558.866
146.25,632.791
146.38,1158.3
146.51,2430.66
146.64,1842.84
146.77,1016.62
146.9,1203.59
147.03,1374.31
147.16,830.302
147.29,796.305
147.42,1346.72
147.55,1391.3
147.68,966.707
147.81,1262.6
147.94,2465.71
148.07,3268.34
148.2,2093.69
148.33,2118.39
148.46,2881.03
148.59,2211.77
148.72,2660.84
148.85,4497.29
148.98,5492.03
149.11,3577.99
149.24,2657.06
149.37,3836.79
149.5,3745.57
149.63,2521.91
149.76,3246.39
149.89,4762.26
150.02,3753.78
150.15,2545.47
150.28,3343.29
150.41,4734.41
150.54,3924.03
150.67,3923.55
150.8,3095.59
150.93,2349.07
151.06,1481.82
151.19,1104.18
151.32,1393.9
151.45,1994.07
151.58,1715.97
151.71,1954.98
151.84,2175.39
151.97,2475.83
152.1,3165.62
152.23,1939.57
152.36,979.431
152.49,650.603
152.62,614.367
152.75,838.805
152.88,1385.64
153.01,1547.16
153.14,1619.13
153.27,1625.87
153.4,886.024
153.53,475.543
153.66,333.595
153.79,308.159
153.92,395.695
154.05,621.763
154.18,594.178
154.31,331.927
154.44,199.233
154.57,147.087
154.7,122.375
154.83,107.915
154.96,98.458
155.09,92.0518
155.22,87.4847
155.35,84.3291
155.48,82.1763
155.61,80.8246
155.74,80.1517
155.87,80.0868
156,80.5966
156.13,81.6777
156.26,83.3543
156.39,85.6796
156.52,88.7402
156.65,92.6662
156.78,97.6471
156.91,103.958
157.04,112.004
157.17,122.396
157.3,136.087
157.43,154.624
157.56,180.66
157.69,219.084
157.82,280.29
157.95,391.823
158.08,629.12
158.21,1136.43
158.34,1937.98
158.47,2129.3
158.6,1386.16
158.73,819.252
158.86,570.272
158.99,495.445
159.12,511.479
159.25,608.599
159.38,841.404
159.51,1347.03
159.64,2283.77
159.77,3299.33
159.9,3451.11
160.03,3133
160.16,3013.11
160.29,2363.88
160.42,1482.69
160.55,942.812
160.68,688.618
160.81,596.041
160.94,612.841
161.07,759.7
161.2,1084.36
161.33,1450.08
161.46,1421.38
161.59,1337.65
161.72,1534.11
161.85,1648.47
161.98,1504.35
162.11,1620.74
162.24,2114.21
162.37,2476.94
162.5,2023.86
162.63,1320.04
162.76,845.396
162.89,590.763
163.02,464.527
163.15,403.132
163.28,377.443
163.41,377.492
163.54,404.279
163.67,470.725
163.8,608.71
163.93,869.907
164.06,1281.56
164.19,1656.12
164.32,1702.84
164.45,1710.88
164.58,1776.6
164.71,1580.8
164.84,1178.61
164.97,844.12
165.1,639.116
165.23,532.551
165.36,487.445
165.49,480.53
165.62,501.637
165.75,550.413
165.88,635.055
166.01,775.433
166.14,1009.32
166.27,1393.92
166.4,1991.75
166.53,2802.1
166.66,3558.87
166.79,3743.45
166.92,3469.8
167.05,3303.94
167.18,3381.82
167.31,3509.66
167.44,3469.04
167.57,3057.35
167.7,2384.04
167.83,1755.43
167.96,1298.85
168.09,1005.07
168.22,833.021
168.35,747.688
168.48,731.336
168.61,783.815
168.74,918.05
168.87,1145.28
169,1433.15
169.13,1631.11
169.26,1594.61
169.39,1460.73
169.52,1418.56
169.65,1498.67
169.78,1620.34
169.91,1711.38
170.04,1702.28
170.17,1497.43
170.3,1178.31
170.43,890.838
170.56,683.845
170.69,548.633
170.82,464.57
170.95,413.293
171.08,382.279
171.21,364.19
171.34,355.149
171.47,353.248
171.6,357.684
171.73,368.37
171.86,385.787
171.99,410.774
172.12,445.067
172.25,490.336
172.38,548.622
172.51,621.909
172.64,711.637
172.77,817.757
172.9,936.976
173.03,1060.09
173.16,1169.74
173.29,1243.55
173.42,1264.9
173.55,1235.69
173.68,1174.96
173.81,1106.18
173.94,1046.82
174.07,1006.39
174.2,988.846
174.33,995.135
174.46,1024.82
174.59,1076.86
174.72,1150.1
174.85,1243.26
174.98,1354.99
175.11,1483.68
175.24,1627.16
175.37,1782.17
175.5,1943.88
175.63,2105.35
175.76,2257.33
175.89,2388.61
176.02,2487.41
176.15,2543.62
176.28,2551.34
176.41,2510.64
176.54,2427.64
176.67,2312.84
176.8,2178.65
176.93,2037.09
177.06,1898.33
177.19,1770.17
177.32,1658.05
177.45,1565.31
177.58,1493.26
177.71,1440.9
177.84,1404.07
177.97,1374.33
178.1,1339.26
178.23,1286.64
178.36,1211.48
178.49,1119.1
178.62,1020.34
178.75,924.965
178.88,838.873
179.01,764.556
179.14,702.39
179.27,651.626
179.4,610.931
179.53,578.69
179.66,553.168
179.79,532.631
179.92,515.457
180,505.95